Folder: fuzzy-gradient-optimisation/data/datasets

File: Concrete_Slump.csv
No,Cement,Slag,Fly ash,Water,SP,Coarse Aggr.,Fine Aggr.,SLUMP(cm),FLOW(cm),Compressive Strength (28-day)(Mpa)
0.0,0.57384,0.42487,0.403846,0.625,0.315068,0.573267,0.150727,0.793103,0.724138,0.430576
0.00980392,0.109705,0.772021,0.734615,0.25,0.520548,0.394852,0.403213,0.0,0.0,0.579342
0.0196078,0.105485,0.766839,0.734615,0.2375,0.794521,0.386078,0.391737,0.0344828,0.0,0.595549
0.0294118,0.105485,0.766839,0.730769,0.2375,1,0.380228,0.384086,0.103448,0.0258621,0.60208
0.0392157,0.07173,0.580311,0.553846,0.75,0.383562,0.628839,0.0665647,0.689655,0.758621,0.232946
0.0490196,0.0421941,0.46114,0.442308,0.525,0.315068,0.444574,0.720735,0.793103,0.603448,0.194001
0.0588235,0.0632911,0.720207,0.684615,0.1,0.931507,0.69026,0.20811,0.0,0.0,0.52419
0.0686275,0.0337553,0.0,0.873077,1.0,0.109589,0.122843,0.812548,0.5,0.663793,0.469279
0.0784314,0.0632911,0.0,0.911538,0.55,0.109589,0.225212,0.961744,0.534483,0.534483,0.375423
0.0882353,0.704641,0.0,0.538462,0.675,0.109589,0.546944,0.3114,0.655172,0.534483,0.514514
0.0980392,0.0337553,0.549223,0.523077,0.6,0.383562,0.125768,0.927314,0.844828,0.706897,0.213595
0.107843,0.0464135,0.564767,0.534615,0.4125,0.178082,0.17549,1.0,0.818966,0.655172,0.262216
0.117647,0.021097,0.673575,0.642308,0.6875,0.109589,0.0789705,0.747513,0.87931,0.810345,0.343009
0.127451,0.915612,0.0,0.0,0.925,0.109589,0.734133,0.192808,0.586207,0.586207,0.404451
0.137255,1,0.0,0.0,0.375,0.178082,0.892074,0.342005,0.5,0.387931,0.368892
0.147059,0.092827,0.601036,0.573077,0.1875,0.726027,0.716584,0.303749,0.810345,0.594828,0.407837
0.156863,0.0675105,0.0,0.919231,0.5,0.109589,0.859901,0.166029,0.413793,0.258621,0.268505
0.166667,0.666667,0.549223,0.523077,0.575,0.452055,0.122843,0.479725,0.862069,0.836207,0.576197
0.176471,0.729958,0.0,0.55,0.1,0.383562,0.602515,0.625096,0.706897,0.486207,0.77673
0.186275,0.670886,0.502591,0.0,0.7375,0.315068,0.655162,0.169855,0.517241,0.491379,0.291243
0.196078,0.708861,0.518135,0.0,0.45,0.383562,0.734133,0.246366,0.689655,0.5,0.304306
0.205882,0.729958,0.0,0.55,0.725,0.383562,0.231062,0.625096,0.448276,0.448276,0.459603
0.215686,0.0464135,0.932642,0.0,0.2875,0.452055,0.772156,0.445295,0.0,0.0,0.0321722
0.22549,0.0379747,0.92228,0.0,0.4,0.452055,0.739982,0.41469,0.62069,0.448276,0.0
0.235294,0.021097,0.673575,0.642308,0.175,0.452055,0.511846,0.55241,0.0,0.0,0.472424
0.245098,0.0126582,0.663212,0.630769,0.2875,0.520548,0.476748,0.514155,0.818966,0.568966,0.39163
0.254902,0.721519,0.57513,0.546154,0.7125,0.383562,0.219362,0.17368,0.862069,0.862069,0.60208
0.264706,0.666667,0.549223,0.523077,0.6,0.109589,0.476748,0.0359602,0.913793,0.862069,0.537252
0.27451,0.679325,0.554404,0.526923,0.5125,0.109589,0.497221,0.055088,0.551724,0.103448,0.582487
0.284314,0.746835,0.0,0.619231,0.5875,0.109589,0.418251,0.445295,0.741379,0.758621,0.579342
0.294118,0.776371,0.0,0.630769,0.375,0.0410959,0.473823,0.510329,0.827586,0.689655,0.69255
0.303922,0.894515,0.0,0.684615,0.875,0.109589,0.225212,0.307575,0.689655,0.836207,0.647315
0.313725,0.966245,0.0,0.719231,0.3875,0.178082,0.33928,0.445295,0.853448,0.736207,0.857765
0.323529,0.578059,0.46114,0.442308,0.525,0.315068,0.149166,0.713083,0.913793,0.827586,0.443396
0.333333,0.0,0.865285,0.823077,0.825,0.109589,0.0,0.445295,0.948276,0.862069,0.417513
0.343137,0.582278,0.512953,0.488462,0.3,0.589041,0.298333,0.571538,0.887931,0.767241,0.637397
0.352941,0.485232,0.393782,0.373077,0.425,0.246575,0.371454,0.69013,0.793103,0.586207,0.385099
0.362745,0.118143,0.777202,0.0,0.275,0.520548,0.921322,0.338179,0.5,0.0,0.0258829
0.372549,0.0886076,0.0,0.946154,0.175,0.178082,0.95642,0.250191,0.655172,0.396552,0.430576
0.382353,0.0801688,0.0,0.934615,0.25,0.452055,0.918397,0.219587,0.724138,0.637931,0.401306
0.392157,0.0337553,0.917098,0.873077,0.6125,0.452055,0.128693,0.284621,0.0862069,0.0,0.446783
0.401961,0.07173,0.73057,0.696154,0.925,0.452055,0.26031,0.162204,0.793103,0.775862,0.394775
0.411765,0.0970464,0.756477,0.723077,0.5375,0.452055,0.353905,0.265493,0.448276,0.310345,0.394775
0.421569,0.649789,0.544041,0.0,0.5625,0.109589,0.44165,0.598317,0.827586,0.672414,0.252298
0.431373,0.679325,0.554404,0.0,0.325,0.109589,0.500146,0.667177,0.103448,0.0,0.333333
0.441176,0.763713,0.65285,0.0,0.625,0.109589,0.447499,0.368783,0.603448,0.482759,0.352685
0.45098,0.603376,0.476684,0.453846,0.5875,0.315068,0.511846,0.146901,0.87931,0.758621,0.488631
0.460784,0.632911,0.487047,0.465385,0.35,0.315068,0.573267,0.211936,0.862069,0.706897,0.624577
0.470588,0.822785,0.0,0.653846,0.0,0.109589,0.561568,0.632747,0.0,0.0,1.0
0.480392,0.797468,0.0,0.642308,0.175,0.109589,0.51477,0.579189,0.741379,0.37931,0.857765
0.490196,0.772152,0.0,0.626923,0.35,0.315068,0.462123,0.51798,0.810345,0.689655,0.689405
0.5,0.864979,0.704663,0.0,0.8125,0.452055,0.18134,0.407039,0.724138,0.706897,0.359216
0.509804,0.924051,0.735751,0.0,0.4125,0.452055,0.272009,0.525631,0.275862,0.172414,0.466134
0.519608,0.725738,0.0,0.546154,0.725,0.383562,0.596666,0.150727,0.827586,0.724138,0.517658
0.529412,0.780591,0.0,0.573077,0.325,0.246575,0.710734,0.261668,0.706897,0.715517,0.682874
0.539216,0.092827,1.0,0.0,0.6,0.520548,0.330506,0.678653,0.793103,0.517241,0.0483793
0.54902,0.7173,0.569948,0.0,0.3625,0.383562,0.573267,0.475899,0.758621,0.344828,0.346154
0.558824,0.742616,0.642487,0.0,0.5625,0.452055,0.403627,0.44912,0.758621,0.5,0.300919
0.568627,0.0253165,0.678756,0.646154,0.7125,0.109589,0.535244,0.120122,0.862069,0.844828,0.22327
0.578431,0.0126582,0.663212,0.630769,0.9625,0.109589,0.470898,0.0589135,0.827586,0.775862,0.297775
0.588235,0.594937,0.0,0.45,0.5625,0.315068,0.488447,0.605968,0.655172,0.482759,0.375423
0.598039,0.637131,0.0,0.465385,0.2125,0.178082,0.584966,0.720735,0.775862,0.491379,0.550073
0.607843,0.683544,0.554404,0.0,0.625,0.383562,0.505996,0.399388,0.862069,0.741379,0.268505
0.617647,0.649789,0.53886,0.0,0.8875,0.315068,0.4358,0.322877,0.793103,0.844828,0.320271
0.627451,0.540084,0.445596,0.426923,0.4375,0.109589,0.365604,0.571538,0.931034,0.689655,0.488631
0.637255,0.092827,0.0,0.953846,0.1875,0.520548,0.973969,0.162204,0.724138,0.534483,0.440252
0.647059,0.0970464,0.0,0.961538,0.1,0.520548,0.997368,0.181331,0.62069,0.482759,0.495162
0.656863,0.122363,0.0,1.0,0.2875,0.589041,0.44165,0.713083,0.724138,0.586207,0.55999
0.666667,0.772152,0.658031,0.630769,0.6375,0.109589,0.0380228,0.315226,0.0689655,0.0,0.705612
0.676471,0.839662,0.694301,0.0,0.775,0.109589,0.140392,0.560061,0.896552,0.758621,0.35583
0.686275,0.586498,0.466321,0.446154,0.25,0.315068,0.473823,0.487376,0.0,0.0,0.65046
0.696078,0.742616,0.580311,0.0,0.75,0.383562,0.251536,0.567712,0.793103,0.655172,0.26536
0.705882,0.780591,0.601036,0.0,0.45,0.383562,0.321732,0.659526,0.87931,0.810345,0.304306
0.715686,0.662447,0.549223,0.523077,0.5875,0.109589,0.114068,0.525631,0.827586,0.465517,0.582487
0.72549,0.0379747,0.549223,0.526923,0.6125,0.109589,0.488447,0.475899,0.827586,0.810345,0.258829
0.735294,0.0506329,0.564767,0.534615,0.4125,0.109589,0.538169,0.533282,0.810345,0.663793,0.278423
0.745098,0.092827,0.0,0.719231,0.2,0.452055,0.824803,0.567712,0.413793,0.327586,0.372037
0.754902,0.523207,0.404145,0.384615,0.5125,0.315068,0.456274,0.460597,0.793103,0.75,0.410982
0.764706,0.0126582,0.00725389,0.761923,0.18625,0.0,1.0,0.535195,0.560345,0.189655,0.329947
0.77451,0.0172996,0.00310881,0.805769,0.36,0.0136986,0.842644,0.568477,0.810345,0.568966,0.320271
0.784314,0.0130802,0.0217617,0.830385,0.42375,0.0205479,0.99883,0.265876,0.844828,0.637931,0.22327
0.794118,0.0130802,0.0611399,0.869615,0.5975,0.0342466,0.91518,0.165264,0.724138,0.758621,0.219884
0.803922,0.0978903,0.0015544,0.923077,0.91875,0.328767,0.213513,0.767024,0.827586,0.948276,0.459603
0.813725,0.0135021,0.158031,0.919231,0.1175,0.0616438,0.937116,0.390589,0.732759,0.448276,0.462748
0.823529,0.0135021,0.232124,0.903462,0.14125,0.0753425,0.993273,0.24254,0.810345,0.560345,0.401306
0.833333,0.0147679,0.31658,0.918846,0.28125,0.0890411,0.90582,0.156083,0.844828,0.689655,0.333333
0.843137,0.0265823,0.475648,0.922308,0.51,0.123288,0.751097,0.0248661,0.862069,0.603448,0.239478
0.852941,0.241772,0.0015544,0.923077,0.9275,0.308219,0.212343,0.653022,0.913793,1.0,0.514514
0.862745,0.0565401,0.574611,0.921923,0.10125,0.143836,0.854636,0.10176,0.327586,0.12931,0.501451
0.872549,0.0561181,0.577202,0.918462,0.09125,0.143836,0.852588,0.114384,0.5,0.284483,0.507983
0.882353,0.0776371,0.632642,0.923077,0.24875,0.157534,0.756946,0.0455241,0.5,0.37069,0.443396
0.892157,0.119409,0.741969,0.916538,0.505,0.184932,0.512431,0.0459067,0.586207,0.12069,0.378568
0.901961,0.703797,0.00103627,0.922308,0.955,0.267123,0.21088,0.285769,0.862069,1.0,0.660135
0.911765,0.147679,0.839896,0.917308,0.075,0.205479,0.717461,0.00306044,0.0,0.0,0.589018
0.921569,0.151055,0.820207,0.921154,0.08,0.205479,0.715414,0.0133894,0.0,0.0,0.595549
0.931373,0.199578,0.794819,0.92,0.2375,0.212329,0.620649,0.00114767,0.0,0.0,0.576197
0.941176,0.331646,0.584974,0.919231,0.48375,0.205479,0.51477,0.0325172,0.948276,0.758621,0.530721
0.95098,0.667932,0.0,0.922692,0.9525,0.267123,0.211465,0.314843,0.862069,0.982759,0.65046
0.960784,0.46962,0.523316,0.919615,0.11125,0.226027,0.720094,0.0,0.0,0.0,0.792937
0.970588,0.468354,0.523316,0.922692,0.11375,0.226027,0.707517,0.0133894,0.0689655,0.0,0.799226
0.980392,0.513924,0.455959,0.921538,0.19125,0.219178,0.675344,0.020658,0.0,0.0,0.805757
0.990196,0.675527,0.211917,0.922692,0.425,0.212329,0.587599,0.0428462,0.948276,0.810345,0.773585
1.0,0.893249,0.000518135,0.858077,0.60625,0.356164,0.228722,0.449503,1.0,1.0,0.763909